File: TestXRDdata.csv
Bulk CNx_step001_speed5deg/1,
θ/2θ - °,Intensity - cps
10,15978.6
10.04,15950.3
10.08,15779.3
10.12,15642
10.16,16584.2
10.2,16764.8
10.24,16638.6
10.28,17144.2
10.32,17058.3
10.36,17186.9
10.4,17458.2
10.44,17437.6
10.48,17840.9
10.52,18497.5
10.56,17915.8
10.6,18427.3
10.64,18636
10.68,18513.9
10.72,18640.2
10.76,18816.3
10.8,19075.9
10.84,19138.7
10.88,19316.6
10.92,19351.2
10.96,19262.5
11,19463.4
11.04,19392.5
11.08,19860.7
11.12,19385.3
11.16,20143.3
11.2,19971.2
11.24,20577.5
11.28,20894.1
11.32,20347.1
11.36,20598.5
11.4,21313
11.44,21417.9
11.48,21971.2
11.52,21789.6
11.56,21713.2
11.6,22266.4
11.64,22417.5
11.68,23204.4
11.72,23249
11.76,23452.2
11.8,23988.7
11.84,24624.8
11.88,24764.1
11.92,25208.6
11.96,25967.7
12,26836.9
12.04,27837.8
12.08,27895.1
12.12,28510.5
12.16,30254.1
12.2,31249.2
12.24,31173.2
12.28,32840.1
12.32,34004.1
12.36,35033.6
12.4,36777.6
12.44,38034.3
12.48,38364.8
12.52,39452.6
12.56,40015.3
12.6,41095.5
12.64,43060.6
12.68,43598.8
12.72,44841.1
12.76,44654.2
12.8,44956.6
12.84,45759.6
12.88,45691.8
12.92,46344.8
12.96,45597.3
13,46506.1
13.04,45403.9
13.08,45819
13.12,44650
13.16,45003.8
13.2,44935.6
13.24,44985.2
13.28,44511.5
13.32,44280.6
13.36,43444.8
13.4,43285.5
13.44,43103.6
13.48,42793.7
13.52,42588.5
13.56,42276.7
13.6,40991.9
13.64,40947.7
13.68,41032.3
13.72,41124.7
13.76,40118.2
13.8,40788.7
13.84,38852.8
13.88,39010.6
13.92,39572.4
13.96,39591.4
14,38637.4
14.04,38722.2
14.08,38864.3
14.12,38794.3
14.16,37890.8
14.2,38313.2
14.24,37090.5
14.28,37323.8
14.32,36975.3
14.36,37405.3
14.4,36604.6
14.44,36563.2
14.48,37208.6
14.52,36863.4
14.56,36104.6
14.6,36126.4
14.64,35729.6
14.68,35964
14.72,35990.9
14.76,35290.8
14.8,35099.4
14.84,35365.2
14.88,34968.7
14.92,34992
14.96,34860.4
15,34403.2
15.04,33800
15.08,33539.1
15.12,34638.2
15.16,33614.9
15.2,33703.2
15.24,33906.6
15.28,33813.9
15.32,33198.4
15.36,32303.2
15.4,33092
15.44,32467.7
15.48,33283.6
15.52,32876.4
15.56,32251.8
15.6,33015.6
15.64,33034.6
15.68,33113.4
15.72,32066.1
15.76,31601.5
15.8,32361.4
15.84,32367.3
15.88,31692.9
15.92,32158.8
15.96,32373.5
16,31798.1
16.04,31960.4
16.08,32001.7
16.12,32342.1
16.16,31814.6
16.2,31585.4
16.24,31144.1
16.28,31422.2
16.32,31646.6
16.36,31545.1
16.4,31473.5
16.44,32065.3
16.48,31756.4
16.52,31674.2
16.56,31875.3
16.6,32106.1
16.64,32009.9
16.68,31227.5
16.72,31996.4
16.76,31371.6
16.8,31521.5
16.84,31605.4
16.88,32834.7
16.92,31860.7
16.96,32010.3
17,31497.4
17.04,32667.9
17.08,32720.5
17.12,32676.6
17.16,33070.3
17.2,32757.1
17.24,32678.7
17.28,33273.9
17.32,33753.5
17.36,33718.2
17.4,33443.7
17.44,34058.25
17.48,33734.8
17.52,33642.8
17.56,33607.3
17.6,34044
17.64,33964.4
17.68,34451.9
17.72,34062.8
17.76,34090.4
17.8,33889.2
17.84,34020.5
17.88,34391.9
17.92,33257
17.96,33996.3
18,33337.6
18.04,33879.7
18.08,33759.6
18.12,33203.3
18.16,33150.6
18.2,33409.3
18.24,33161.7
18.28,32651.8
18.32,32624.4
18.36,32666.1
18.4,32828.6
18.44,32476.1
18.48,32254.3
18.52,32093.9
18.56,31866.2
18.6,32209.4
18.64,31752.3
18.68,31898.7
18.72,31956.8
18.76,31172.8
18.8,31173.7
18.84,31735.1
18.88,31149
18.92,30487.8
18.96,30324.2
19,31271.9
19.04,30458.4
19.08,30722.7
19.12,30569.5
19.16,30794.8
19.2,29560.9
19.24,30324
19.28,30231.7
19.32,30031
19.36,30079.9
19.4,30026.9
19.44,30020.1
19.48,29379.4
19.52,30395.8
19.56,29785.8
19.6,29740.8
19.64,29412.5
19.68,29514.3
19.72,29231.5
19.76,29266.5
19.8,29395.2
19.84,29119.5
19.88,29543.8
19.92,28561.1
19.96,28794.2
20,29404.2
20.04,28917.3
20.08,29191.9
20.12,28767.1
20.16,28578.3
20.2,28825.9
20.24,29073.7
20.28,28566
20.32,28916.1
20.36,28669.9
20.4,28817.3
20.44,29171.5
20.48,29327.1
20.52,29376.9
20.56,28744
20.6,28515.4
20.64,29094
20.68,28769.4
20.72,29034
20.76,28831.7
20.8,28683.9
20.84,28440.2
20.88,28832.3
20.92,29869
20.96,29169
21,29550.2
21.04,29464.6
21.08,29671
21.12,29063.3
21.16,29762.2
21.2,30081.1
21.24,29981.6
21.28,29409.3
21.32,29674.8
21.36,29997.1
21.4,30289.7
21.44,30489.6
21.48,29843.8
21.52,29473.3
21.56,30911.6
21.6,30507
21.64,30539.7
21.68,30527.7
21.72,30398.6
21.76,29664.1
21.8,30232.2
21.84,30728.6
21.88,30987.5
21.92,30050.7
21.96,29990.9
22,29503
22.04,29855.1
22.08,29746.5
22.12,29177.3
22.16,28934.9
22.2,29180
22.24,29794.7
22.28,29437.8
22.32,28580.9
22.36,28556.3
22.4,29257.9
22.44,28856.1
22.48,28832.1
22.52,29540.2
22.56,28628.5
22.6,28867.9
22.64,28099.3
22.68,28789.8
22.72,28252.2
22.76,28030.6
22.8,28532.9
22.84,28570.6
22.88,28273.3
22.92,28834.5
22.96,28246.4
23,28805
23.04,28147
23.08,28088.7
23.12,28434.5
23.16,27992
23.2,28475.1
23.24,28596
23.28,28604.3
23.32,28114.1
23.36,28272.9
23.4,28008.5
23.44,28327.3
23.48,28643.2
23.52,29302.1
23.56,28546.9
23.6,28999
23.64,28988.1
23.68,28458.3
23.72,28688.5
23.76,28783.8
23.8,29207.2
23.84,28780.7
23.88,28561.1
23.92,28427.1
23.96,28716.9
24,29196.5
24.04,29305.7
24.08,29127.4
24.12,29376.4
24.16,29660.8
24.2,29406.7
24.24,29314.5
24.28,30015.3
24.32,30194.9
24.36,30068.2
24.4,30230.8
24.44,30348.4
24.48,30478.4
24.52,30502.3
24.56,30431.7
24.6,31376.7
24.64,31574.5
24.68,30934.9
24.72,32237.4
24.76,32005.7
24.8,31783.4
24.84,32424.6
24.88,32698.2
24.92,33507.5
24.96,33693.9
25,34054.6
25.04,34534
25.08,34796.9
25.12,35171.6
25.16,35306.2
25.2,35812.3
25.24,36178.2
25.28,37076.5
25.32,37250
25.36,38163.2
25.4,38646.5
25.44,39761.4
25.48,39947.2
25.52,41021.7
25.56,41654
25.6,42497.3
25.64,43731.7
25.68,44476.1
25.72,45757
25.76,46110.8
25.8,46748.3
25.84,48038.9
25.88,49217.6
25.92,49985
25.96,51598.6
26,52758.625
26.04,55250.2
26.08,55881
26.12,56473.2
26.16,58078.2
26.2,61432.2
26.24,61752.5
26.28,64862.2
26.32,67005.875
26.36,69280.5
26.4,72254
26.44,75798.7
26.48,77977.2
26.52,81410.7
26.56,85178.6
26.6,88145.6
26.64,92315.7
26.68,97954.2
26.72,102028
26.76,107085
26.8,112760
26.84,116929.375
26.88,122643
26.92,127969
26.96,133431
27,139866
27.04,145875
27.08,153450
27.12,159731
27.16,165188
27.2,170638
27.24,176270
27.28,181017.875
27.32,186283
27.36,189152
27.4,189805
27.44,189389
27.48,190176
27.52,188591
27.56,186344
27.6,180711
27.64,174816
27.68,169805
27.72,158993
27.76,153199
27.8,143902
27.84,135144
27.88,126770.875
27.92,117960
27.96,111953
28,104641
28.04,99728.1
28.08,94108.8
28.12,89965.4
28.16,84738.6
28.2,83535
28.24,79512
28.28,75941
28.32,71925.6
28.36,67367.6
28.4,63676.2
28.44,60736.7
28.48,56242.1
28.52,54265.2
28.56,51306.3
28.6,50741.9
28.64,48845.3
28.68,46788.3
28.72,44824.6
28.76,44203.9
28.8,42559.2
28.84,41506.5
28.88,40322.7
28.92,40085.1
28.96,38312.1
29,37075.6
29.04,37478.8
29.08,36905.9
29.12,35365.2
29.16,35323.4
29.2,34095.6
29.24,33403.9
29.28,32719
29.32,32212.4
29.36,32307.3
29.4,31506.7
29.44,30913.5
29.48,30404
29.52,30547.6
29.56,29184.3
29.6,29398.7
29.64,28376.7
29.68,28744.7
29.72,28512.6
29.76,27609.3
29.8,28369.4
29.84,27485.5
29.88,27044.9
29.92,26488.1
29.96,26802.4
30,26525.3
30.04,26317.9
30.08,26377.9
30.12,25353.8
30.16,25105.1
30.2,25808.5
30.24,25275.7
30.28,24525.9
30.32,25066.6
30.36,24834.6
30.4,24894.2
30.44,24336.9
30.48,24405.7
30.52,24484.9
30.56,24136.4
30.6,23925
30.64,23795.7
30.68,23575.8
30.72,23241.3
30.76,22650.5
30.8,23027.8
30.84,22646.6
30.88,22529
30.92,22386.1
30.96,22347.3
31,21809.4
31.04,21682.9
31.08,21821.6
31.12,21594.5
31.16,21277.2
31.2,20968.5
31.24,20816
31.28,20889
31.32,21341
31.36,20888.5
31.4,20279.2
31.44,20446.3
31.48,20219.1
31.52,20621.6
31.56,19619.5
31.6,20109.3
31.64,19942.8
31.68,19580.4
31.72,19942.1
31.76,19254.6
31.8,19569
31.84,19442.5
31.88,19418.7
31.92,19159.1
31.96,18315.5
32,18277.1
32.04,18258.3
32.08,18144.9
32.12,18314.2
32.16,18173.2
32.2,18005.8
32.24,17634.2
32.28,17897.6
32.32,18035.5
32.36,18067.1
32.4,17802.6
32.44,17587
32.48,17562.2
32.52,17261.8
32.56,17249.3
32.6,17321.1
32.64,17247.4
32.68,17120.2
32.72,17034.4
32.76,16566.4
32.8,16515
32.84,17209.9
32.88,16378.6
32.92,16707.3
32.96,16022.3
33,16440.9
33.04,16239.8
33.08,15956.2
33.12,16634.3
33.16,16254.1
33.2,16156.6
33.24,16456.8
33.28,16548.6
33.32,15558.5
33.36,16169.7
33.4,15489.2
33.44,15758.8
33.48,15963.9
33.52,15415.6
33.56,15740.4
33.6,15344.2
33.64,15644.4
33.68,15140.9
33.72,15677
33.76,14764.9
33.8,15216.4
33.84,14835.1
33.88,15677.8
33.92,14850
33.96,14800.5
34,14498.5
34.04,15473.9
34.08,14376.9
34.12,14904.8
34.16,14741.5
34.2,15439.5
34.24,14854.8
34.28,14851.8
34.32,14905.5
34.36,14587.4
34.4,14780.3
34.44,14684.5
34.48,14675.1
34.52,14656.9
34.56,14296.9
34.6,14767.9
34.64,14719.3
34.68,14542.6
34.72,14237.6
34.76,14331.5
34.8,14174.6
34.84,13968.1
34.88,14473.6
34.92,14848.3
34.96,14104.4
35,14270.6
35.04,14066.2
35.08,13950.4
35.12,13949.8
35.16,14169.9
35.2,13657.9
35.24,14051.8
35.28,14347.7
35.32,14234.6
35.36,14125.3
35.4,13437.3
35.44,14069.4
35.48,14225.1
35.52,13924.875
35.56,13556.4
35.6,13909.6
35.64,13365.2
35.68,13583.4
35.72,13857.7
35.76,13540.3
35.8,13553.6
35.84,13956.3
35.88,13844.1
35.92,13865.5
35.96,13406.8
36,13781.4
36.04,13355.6
36.08,13069
36.12,12927.2
36.16,13727.6
36.2,13148
36.24,13521.9
36.28,13578.1
36.32,13378.6
36.36,13022.7
36.4,13195.1
36.44,13262.2
36.48,13189
36.52,13141.2
36.56,13386.9
36.6,12699.1
36.64,13047.2
36.68,13235.9
36.72,12926.2
36.76,12634.8
36.8,12711.6
36.84,13091.3
36.88,13355
36.92,13160.2
36.96,13165.2
37,12872
37.04,12443.6
37.08,12745.8
37.12,12747.5
37.16,12390
37.2,12309.2
37.24,12561.5
37.28,12578
37.32,12664
37.36,12526.1
37.4,12573.6
37.44,12402.4
37.48,12692.7
37.52,12471.7
37.56,12578.7
37.6,12416.8
37.64,12282
37.68,12385.7
37.72,12413.7
37.76,12207.3
37.8,12299.9
37.84,12490.9
37.88,12409.3
37.92,12243.7
37.96,12208.3
38,12006.5
38.04,12051.1
38.08,12389.3
38.12,12254.2
38.16,12690.4
38.2,12277.8
38.24,11878.2
38.28,12522.5
38.32,12404.2
38.36,12451.7
38.4,12136.5
38.44,12088.3
38.48,12118.7
38.52,12329.9
38.56,12157.5
38.6,12503.1
38.64,12084.9
38.68,11931.2
38.72,12210.9
38.76,12379.5
38.8,12072
38.84,12087.5
38.88,12335.8
38.92,12357
38.96,12586.7
39,12482.1
39.04,12433.4
39.08,12485.3
39.12,12598.8
39.16,12569
39.2,12242.3
39.24,12630.9
39.28,12647.8
39.32,12702.1
39.36,12813.5
39.4,12705.9
39.44,12066.7
39.48,12079.8
39.52,13147.7
39.56,12724
39.6,12494.2
39.64,12592.2
39.68,12696.7
39.72,12145.5
39.76,12402
39.8,12564.9
39.84,12515.5
39.88,12659.5
39.92,12519
39.96,12593.3
40,12338.3
40.04,12735
40.08,12484.3
40.12,12659.4
40.16,13317.7
40.2,13212.8
40.24,13456.2
40.28,14113.3
40.32,14372.8
40.36,14328.6
40.4,15501.2
40.44,15472.3
40.48,15393.9
40.52,15027.2
40.56,14203.5
40.6,13486.3
40.64,13361.1
40.68,13231.5
40.72,12986.2
40.76,12278.2
40.8,12596.8
40.84,12344.1
40.88,12181.3
40.92,12686.7
40.96,12633.6
41,11956.5
41.04,12182.1
41.08,12507.6
41.12,12345.3
41.16,12372.2
41.2,12580.1
41.24,12927.4
41.28,12056.9
41.32,12542.8
41.36,12481.6
41.4,12313.4
41.44,12691.5
41.48,11989.3
41.52,12296.3
41.56,12555.8
41.6,12276.2
41.64,11956.4
41.68,12377.4
41.72,12193.7
41.76,12274.7
41.8,12238.8
41.84,12332.3
41.88,12066.1
41.92,12164.8
41.96,12220.7
42,12058
42.04,12151.3
42.08,12576.2
42.12,12162.2
42.16,12414.5
42.2,12738.7
42.24,12325.5
42.28,12813.6
42.32,12739.7
42.36,12835.3
42.4,12348.3
42.44,12841.6
42.48,13293.2
42.52,12906.9
42.56,13318.2
42.6,12704
42.64,12665
42.68,12791.9
42.72,13152.6
42.76,13058.8
42.8,12770.6
42.84,13278.4
42.88,13459.9
42.92,12715.5
42.96,13463.8
43,13355.9
43.04,13498.3
43.08,13451.7
43.12,13481
43.16,13155.2
43.2,13436.8
43.24,13381
43.28,14049.8
43.32,13597.6
43.36,14005.4
43.4,14056.5
43.44,13941.8
43.48,14131.6
43.52,13943.5
43.56,13756
43.6,14416.9
43.64,14036.5
43.68,13835.4
43.72,14600.8
43.76,13871.8
43.8,14270.5
43.84,14120.6
43.88,14269.4
43.92,14291.3
43.96,14340
44,13890.6
44.04,13826
44.08,14087.4
44.12,14468.6
44.16,14525.2
44.2,14651.4
44.24,14033.6
44.28,14185.5
44.32,14406
44.36,14562.4
44.4,14374.7
44.44,14329.1
44.48,13889.7
44.52,13940.1
44.56,13809.4
44.6,14238
44.64,14428.3
44.68,13933.1
44.72,14596.3
44.76,13374.1
44.8,13734.9
44.84,13943.2
44.88,14230.1
44.92,13671.7
44.96,13849.6
45,13598.4
45.04,14152.4
45.08,14004.2
45.12,13550
45.16,13484.7
45.2,14265.4
45.24,13527.8
45.28,13512.7
45.32,13388.2
45.36,13660.9
45.4,13165.8
45.44,13432.625
45.48,12822
45.52,13472.5
45.56,12988.9
45.6,13414.9
45.64,13347.5
45.68,13271.9
45.72,12810.7
45.76,13357.3
45.8,13341.1
45.84,13214.8
45.88,13339.5
45.92,13380.3
45.96,13252.7
46,13397
46.04,13068.6
46.08,12902.9
46.12,12662.9
46.16,12906.4
46.2,12769.9
46.24,12909.9
46.28,13157.7
46.32,13012.8
46.36,13056.4
46.4,12846.7
46.44,12558.6
46.48,12776.8
46.52,12713.5
46.56,12709.9
46.6,12420
46.64,12209.8
46.68,12197.9
46.72,12204.3
46.76,12659.2
46.8,12336.5
46.84,11992
46.88,12147.6
46.92,12365.8
46.96,12613.3
47,12179.1
47.04,12206.9
47.08,12168.1
47.12,12151.2
47.16,12113.4
47.2,11638.9
47.24,11933.6
47.28,12109.9
47.32,11926.8
47.36,11542.8
47.4,11891.1
47.44,11810.4
47.48,11513.2
47.52,11743.7
47.56,11333.1
47.6,11715.5
47.64,11425.9
47.68,11652.8
47.72,11541.5
47.76,11658.2
47.8,11737.9
47.84,11163.1
47.88,11384.3
47.92,11719.1
47.96,11427
48,11487.4
48.04,11447.9
48.08,11465.9
48.12,11337.7
48.16,11444.8
48.2,11445.7
48.24,11105.6
48.28,11127.2
48.32,11438.7
48.36,11363.4
48.4,11406.4
48.44,11163.2
48.48,11352.9
48.52,10908.6
48.56,11172.8
48.6,10938.1
48.64,11230
48.68,11291.6
48.72,10994.2
48.76,10850
48.8,10798.5
48.84,10996
48.88,11011.2
48.92,10806.3
48.96,10978.8
49,10565.2
49.04,10809
49.08,10931.2
49.12,10588.2
49.16,10803.4
49.2,10846.7
49.24,10688.7
49.28,10663.3
49.32,10680.6
49.36,10643.5
49.4,10663.2
49.44,10674.3
49.48,10769.8
49.52,10600.6
49.56,10630.5
49.6,10504.7
49.64,10394.4
49.68,10530.3
49.72,10329.9
49.76,10843.5
49.8,10960.2
49.84,10621.4
49.88,10795.4
49.92,10970.6
49.96,10644.9
50,10930.7
50.04,11191.3
50.08,11217.4
50.12,11277.7
50.16,11113.2
50.2,10832.6
50.24,10980.5
50.28,10833.2
50.32,10564
50.36,10277.6
50.4,10669.4
50.44,10642.2
50.48,10212
50.52,10264.2
50.56,10816
50.6,10496.6
50.64,10458.7
50.68,10512
50.72,10461.1
50.76,10454.1
50.8,10209
50.84,10459.7
50.88,10422.8
50.92,10643.4
50.96,10375.1
51,10303.9
51.04,10507.8
51.08,10259.2
51.12,10323.7
51.16,10293.6
51.2,10176.5
51.24,10188
51.28,10414.5
51.32,10193.8
51.36,10798.5
51.4,10250.6
51.44,10785.9
51.48,10123.2
51.52,10161.1
51.56,9977.35
51.6,10220.9
51.64,10182.8
51.68,10314.7
51.72,10336.7
51.76,10274.1
51.8,10453.3
51.84,10383.6
51.88,9949.88
51.92,10083.4
51.96,9945.26
52,10070.5
52.04,10370.9
52.08,10668.8
52.12,9993.19
52.16,10138.1
52.2,9845.48
52.24,10140.6
52.28,9840.64
52.32,10183.8
52.36,10070.1
52.4,9879.83
52.44,10139.8
52.48,9887.55
52.52,10040.9
52.56,9659
52.6,9897.5
52.64,10115.4
52.68,9843.45
52.72,10070.8
52.76,9961.93
52.8,10123.8
52.84,10101.8
52.88,9495.57
52.92,9629.98
52.96,9960.24
53,9501.8
53.04,9701.06
53.08,9610.73
53.12,9625.1
53.16,9564.21
53.2,9346.22
53.24,9575.17
53.28,9759.21
53.32,9627.97
53.36,9652.68
53.4,9309.47
53.44,9710.57
53.48,9817.27
53.52,9646.65
53.56,9644.7
53.6,9301.03
53.64,9646.74
53.68,9474.04
53.72,9401.4
53.76,9591.74
53.8,9702.7
53.84,9421.86
53.88,9415.24
53.92,9744.9
53.96,9352.22
54,9789.6
54.04,9363.73
54.08,9443.16
54.12,9520.39
54.16,9170.65
54.2,9256.83
54.24,9383.94
54.28,9584.12
54.32,9445.92
54.36,9441.11
54.4,9264
54.44,9246.66
54.48,9535.81
54.52,9824.39
54.56,9624.17
54.6,9604.64
54.64,9292.97
54.68,9252.3
54.72,9138.91
54.76,9364.46
54.8,9570.6
54.84,9542.52
54.88,9275.18
54.92,9544.54
54.96,9233.26
55,9445.11
55.04,9239.5
55.08,9576.36
55.12,9544.49
55.16,9397.19
55.2,9327.75
55.24,9609.14
55.28,9777.58
55.32,9820.52
55.36,9667.58
55.4,9495.51
55.44,9606.65
55.48,9186.1
55.52,9545.14
55.56,9408.86
55.6,9538.48
55.64,9638.76
55.68,9724.12
55.72,9741.51
55.76,9574.47
55.8,10113.4
55.84,9606.64
55.88,9616.99
55.92,9815.06
55.96,10179.8
56,10361.1
56.04,10079.8
56.08,10204.7
56.12,10364.3
56.16,10466.1
56.2,10273.6
56.24,10092.7
56.28,10059.6
56.32,10354.5
56.36,10248.4
56.4,10321.6
56.44,10090.9
56.48,10359.5
56.52,10585.4
56.56,10074.3
56.6,10348.3
56.64,10632.2
56.68,10706.1
56.72,10428.4
56.76,10491.9
56.8,10767.8
56.84,10522.8
56.88,10340
56.92,10551.5
56.96,10701.9
57,10800
57.04,10330.9
57.08,10575.2
57.12,10545.1
57.16,10321.9
57.2,10399
57.24,10274.1
57.28,10361.6
57.32,9953.57
57.36,10106.8
57.4,10102.6
57.44,9897.9
57.48,9797.41
57.52,9812.48
57.56,9665.34
57.6,9652.37
57.64,9619.2
57.68,9415.28
57.72,9516.19
57.76,9240.41
57.8,9226.97
57.84,9233.32
57.88,9210.66
57.92,9205.59
57.96,8920.67
58,8773.14
58.04,9179.57
58.08,8605.63
58.12,8908.19
58.16,8673.03
58.2,8637.58
58.24,8499.14
58.28,8490.62
58.32,8706.04
58.36,8676.01
58.4,8279.95
58.44,8621.28
58.48,8419.1
58.52,8368.97
58.56,8548.26
58.6,8620.81
58.64,8594.3
58.68,8063.16
58.72,8409.33
58.76,8054.8
58.8,7959.76
58.84,7900.75
58.88,8250.9
58.92,7834.12
58.96,7901.67
59,8091.76
59.04,7592.6
59.08,7820.19
59.12,8004.02
59.16,7730.81
59.2,7433.96
59.24,7842.38
59.28,7820.16
59.32,7873.65
59.36,7685.66
59.4,7755.77
59.44,7613.79
59.48,7556.76
59.52,7655.21
59.56,7956.19
59.6,7603.08
59.64,7642.44
59.68,7340.69
59.72,7320.82
59.76,7596.27
59.8,7574.94
59.84,7123.31
59.88,7510.73
59.92,7231.93
59.96,7317.22
60,7585.05